<Bundle xmlns="http://hl7.org/fhir"><id value="648dd21c-1197-4dfb-a09e-663cf7de8191" /><meta><profile value="http://hl7.org/fhir/us/vrdr/StructureDefinition/VRDR-Death-Certificate-Document" /></meta><type value="document" /><entry><fullUrl value="urn:uuid:01b22ea8-336e-4b80-bbc0-09e3415ed612" /><resource><Composition><id value="01b22ea8-336e-4b80-bbc0-09e3415ed612" /><meta><profile value="http://hl7.org/fhir/us/vrdr/StructureDefinition/VRDR-Death-Certificate" /></meta><identifier><value value="444444" /></identifier><status value="final" /><type><coding><system value="http://loinc.org" /><code value="64297-5" /><display value="Death certificate" /></coding></type><subject><reference value="urn:uuid:db2859df-ae5f-442d-a45d-0e965e026fdb" /></subject><date value="2020-01-15" /><attester><mode value="legal" /><time value="2020-01-10" /><party><reference value="urn:uuid:c88adbcf-b4a3-414d-8946-88b235bafb45" /></party></attester><event><code><coding><system value="http://snomed.info/sct" /><code value="308646001" /><display value="Death certification (procedure)" /></coding></code><detail><reference value="urn:uuid:71e32230-d788-43f6-942a-1349dc0e8af5" /></detail></event><section><entry><reference value="urn:uuid:db2859df-ae5f-442d-a45d-0e965e026fdb" /></entry><entry><reference value="urn:uuid:c88adbcf-b4a3-414d-8946-88b235bafb45" /></entry><entry><reference value="urn:uuid:b5843edb-574d-4ece-9466-40c4c6e1c64e" /></entry><entry><reference value="urn:uuid:71e32230-d788-43f6-942a-1349dc0e8af5" /></entry><entry><reference value="urn:uuid:86f33104-63cc-40c1-a325-e45f544d132d" /></entry><entry><reference value="urn:uuid:0ad78e21-e366-44ec-9c78-6b0360ebf650" /></entry><entry><reference value="urn:uuid:7f083912-b9f6-4426-ba59-0b5243bae85c" /></entry><entry><reference value="urn:uuid:0d64dab0-5e1b-48a2-a2fa-27b0ceb3f34c" /></entry><entry><reference value="urn:uuid:0fb2da6b-0a40-4227-b5c2-034e74cc87ac" /></entry><entry><reference value="urn:uuid:78a863d1-fb34-4377-822f-593a98871ae1" /></entry><entry><reference value="urn:uuid:40ca06d0-e10c-4e81-8ec1-e9ebdb3b16bf" /></entry><entry><reference value="urn:uuid:fb2e6cb8-9668-496a-ae6e-570c7d81ba80" /></entry><entry><reference value="urn:uuid:34263502-3c93-40f2-b99f-7d26a80b9d9a" /></entry><entry><reference value="urn:uuid:b16ca6b0-ad45-408e-87a3-a210e14874c0" /></entry><entry><reference value="urn:uuid:5b5bf89a-2e89-4773-ab84-cd63882dcef0" /></entry><entry><reference value="urn:uuid:7b0f795f-9af1-438b-85c2-7df3b24e8d5e" /></entry><entry><reference value="urn:uuid:588b6e7f-e751-4534-ab15-7e9cc5c5a153" /></entry><entry><reference value="urn:uuid:7c5d1397-fc09-4aa4-95b0-dea50b0d2b0f" /></entry><entry><reference value="urn:uuid:07f739d1-f80e-47df-adb3-5032bab63610" /></entry><entry><reference value="urn:uuid:cc1354c6-c21a-43cb-9ff6-72452093317f" /></entry><entry><reference value="urn:uuid:f9bccceb-a3a3-4eb3-a9f8-a0c3929670ad" /></entry><entry><reference value="urn:uuid:77ca1c1d-7633-4b3c-9dcd-fcaf8926ea40" /></entry><entry><reference value="urn:uuid:dcc53374-a2cf-4c7f-89f4-890c4a7f62fa" /></entry><entry><reference value="urn:uuid:61e1abc0-cb66-47a7-be30-deae422aa673" /></entry><entry><reference value="urn:uuid:b6b201d3-e78d-46a0-86f0-c7f5dea01c7e" /></entry><entry><reference value="urn:uuid:20425842-abf5-45cb-8d80-c743ccb775d6" /></entry><entry><reference value="urn:uuid:3c0916c4-51a3-47dc-b352-114c3db2aef6" /></entry><entry><reference value="urn:uuid:5ef16955-8594-46f9-bf35-1f88576afcd4" /></entry></section></Composition></resource></entry><entry><fullUrl value="urn:uuid:db2859df-ae5f-442d-a45d-0e965e026fdb" /><resource><Patient><id value="db2859df-ae5f-442d-a45d-0e965e026fdb" /><meta><profile value="http://hl7.org/fhir/us/vrdr/StructureDefinition/VRDR-Decedent" /></meta><extension url="http://hl7.org/fhir/us/core/StructureDefinition/us-core-race"><extension url="ombCategory"><valueCoding><system value="urn:oid:2.16.840.1.113883.6.238" /><code value="2106-3" /><display value="White" /></valueCoding></extension><extension url="ombCategory"><valueCoding><system value="urn:oid:2.16.840.1.113883.6.238" /><code value="2054-5" /><display value="Black" /></valueCoding></extension><extension url="text"><valueString value="White, Black" /></extension></extension><extension url="http://hl7.org/fhir/us/core/StructureDefinition/us-core-ethnicity"><extension url="detailed"><valueCoding><system value="urn:oid:2.16.840.1.113883.6.238" /><code value="2182-4" /><display value="Cuban" /></valueCoding></extension><extension url="text"><valueString value="Cuban" /></extension></extension><extension url="http://hl7.org/fhir/us/core/StructureDefinition/us-core-birthsex"><valueCode value="M" /></extension><extension url="http://hl7.org/fhir/StructureDefinition/birthPlace"><valueAddress><city value="San Antonio" /><state value="Texas" /><country value="United States" /></valueAddress></extension><identifier><type><coding><code value="SB" /><display value="Social Beneficiary Identifier" /></coding></type><system value="http://hl7.org/fhir/sid/us-ssn" /><value value="456123789" /></identifier><name><use value="official" /><family value="Perez" /><given value="Javier" /><given value="Luis" /></name><birthDate value="1964-02-24" /><address><extension url="http://hl7.org/fhir/us/vrdr/StructureDefinition/Within-City-Limits-Indicator"><valueBoolean value="false" /></extension><city value="Annapolis" /><district value="Anne Arundel" /><state value="Maryland" /><country value="United States" /></address><maritalStatus><coding><system value="http://terminology.hl7.org/CodeSystem/v3-MaritalStatus" /><code value="M" /><display value="Married" /></coding></maritalStatus></Patient></resource></entry><entry><fullUrl value="urn:uuid:c88adbcf-b4a3-414d-8946-88b235bafb45" /><resource><Practitioner><id value="c88adbcf-b4a3-414d-8946-88b235bafb45" /><meta><profile value="http://hl7.org/fhir/us/vrdr/StructureDefinition/VRDR-Certifier" /></meta><name><use value="official" /><family value="Lost" /><given value="Hope" /></name><address><line value="RR1" /><city value="Dover" /><state value="Delaware" /><country value="United States" /></address></Practitioner></resource></entry><entry><fullUrl value="urn:uuid:b5843edb-574d-4ece-9466-40c4c6e1c64e" /><resource><Practitioner><id value="b5843edb-574d-4ece-9466-40c4c6e1c64e" /><meta><profile value="http://hl7.org/fhir/us/vrdr/StructureDefinition/VRDR-Mortician" /></meta></Practitioner></resource></entry><entry><fullUrl value="urn:uuid:71e32230-d788-43f6-942a-1349dc0e8af5" /><resource><Procedure><id value="71e32230-d788-43f6-942a-1349dc0e8af5" /><meta><profile value="http://hl7.org/fhir/us/vrdr/StructureDefinition/VRDR-Death-Certification" /></meta><status value="completed" /><category><coding><system value="http://snomed.info/sct" /><code value="103693007" /><display value="Diagnostic procedure" /></coding></category><code><coding><system value="http://snomed.info/sct" /><code value="308646001" /><display value="Death certification" /></coding></code><performedDateTime value="2020-01-10" /><performer><function><coding><system value="http://snomed.info/sct" /><code value="434641000124105" /><display value="Death certification and verification by physician" /></coding></function><actor><reference value="urn:uuid:c88adbcf-b4a3-414d-8946-88b235bafb45" /></actor></performer></Procedure></resource></entry><entry><fullUrl value="urn:uuid:86f33104-63cc-40c1-a325-e45f544d132d" /><resource><Organization><id value="86f33104-63cc-40c1-a325-e45f544d132d" /><meta><profile value="http://hl7.org/fhir/us/vrdr/StructureDefinition/VRDR-Interested-Party" /></meta><active value="true" /></Organization></resource></entry><entry><fullUrl value="urn:uuid:0ad78e21-e366-44ec-9c78-6b0360ebf650" /><resource><Organization><id value="0ad78e21-e366-44ec-9c78-6b0360ebf650" /><meta><profile value="http://hl7.org/fhir/us/vrdr/StructureDefinition/VRDR-Funeral-Home" /></meta><type><coding><code value="bus" /><display value="Non-Healthcare Business or Corporation" /></coding></type></Organization></resource></entry><entry><fullUrl value="urn:uuid:7f083912-b9f6-4426-ba59-0b5243bae85c" /><resource><PractitionerRole><id value="7f083912-b9f6-4426-ba59-0b5243bae85c" /><meta><profile value="http://hl7.org/fhir/us/vrdr/StructureDefinition/VRDR-Funeral-Service-Licensee" /></meta><practitioner><reference value="urn:uuid:b5843edb-574d-4ece-9466-40c4c6e1c64e" /></practitioner><organization><reference value="urn:uuid:0ad78e21-e366-44ec-9c78-6b0360ebf650" /></organization></PractitionerRole></resource></entry><entry><fullUrl value="urn:uuid:0d64dab0-5e1b-48a2-a2fa-27b0ceb3f34c" /><resource><List><id value="0d64dab0-5e1b-48a2-a2fa-27b0ceb3f34c" /><meta><profile value="http://hl7.org/fhir/us/vrdr/StructureDefinition/VRDR-Cause-of-Death-Pathway" /></meta><status value="current" /><mode value="snapshot" /><source><reference value="urn:uuid:c88adbcf-b4a3-414d-8946-88b235bafb45" /></source><orderedBy><coding><code value="priority" /></coding></orderedBy><entry><item><reference value="urn:uuid:7c5d1397-fc09-4aa4-95b0-dea50b0d2b0f" /></item></entry><entry><item><reference value="urn:uuid:07f739d1-f80e-47df-adb3-5032bab63610" /></item></entry><entry><item><reference value="urn:uuid:cc1354c6-c21a-43cb-9ff6-72452093317f" /></item></entry></List></resource></entry><entry><fullUrl value="0fb2da6b-0a40-4227-b5c2-034e74cc87ac" /><resource><Location><id value="0fb2da6b-0a40-4227-b5c2-034e74cc87ac" /><meta><profile value="http://hl7.org/fhir/us/vrdr/StructureDefinition/VRDR-Disposition-Location" /></meta></Location></resource></entry><entry><fullUrl value="urn:uuid:78a863d1-fb34-4377-822f-593a98871ae1" /><resource><Observation><id value="78a863d1-fb34-4377-822f-593a98871ae1" /><meta><profile value="http://hl7.org/fhir/us/vrdr/StructureDefinition/VRDR-Decedent-Age" /></meta><status value="final" /><code><coding><system value="http://loinc.org" /><code value="30525-0" /><display value="Age" /></coding></code><subject><reference value="urn:uuid:db2859df-ae5f-442d-a45d-0e965e026fdb" /></subject><valueQuantity><value value="55" /><unit value="a" /></valueQuantity></Observation></resource></entry><entry><fullUrl value="urn:uuid:40ca06d0-e10c-4e81-8ec1-e9ebdb3b16bf" /><resource><Observation><id value="40ca06d0-e10c-4e81-8ec1-e9ebdb3b16bf" /><meta><profile value="http://hl7.org/fhir/us/vrdr/StructureDefinition/VRDR-Birth-Record-Identifier" /></meta><status value="final" /><code><coding><code value="BR" /></coding></code><subject><reference value="urn:uuid:db2859df-ae5f-442d-a45d-0e965e026fdb" /></subject><valueString value="818181" /></Observation></resource></entry><entry><fullUrl value="urn:uuid:fb2e6cb8-9668-496a-ae6e-570c7d81ba80" /><resource><RelatedPerson><id value="fb2e6cb8-9668-496a-ae6e-570c7d81ba80" /><meta><profile value="http://hl7.org/fhir/us/vrdr/StructureDefinition/VRDR-Decedent-Mother" /></meta><patient><reference value="urn:uuid:db2859df-ae5f-442d-a45d-0e965e026fdb" /></patient><relationship><coding><code value="MTH" /></coding></relationship><name><family value="Jones" /><given value="Liliana" /></name></RelatedPerson></resource></entry><entry><fullUrl value="urn:uuid:34263502-3c93-40f2-b99f-7d26a80b9d9a" /><resource><RelatedPerson><id value="34263502-3c93-40f2-b99f-7d26a80b9d9a" /><meta><profile value="http://hl7.org/fhir/us/vrdr/StructureDefinition/VRDR-Decedent-Father" /></meta><patient><reference value="urn:uuid:db2859df-ae5f-442d-a45d-0e965e026fdb" /></patient><relationship><coding><code value="FTH" /></coding></relationship><name><family value="Perez" /></name></RelatedPerson></resource></entry><entry><fullUrl value="urn:uuid:b16ca6b0-ad45-408e-87a3-a210e14874c0" /><resource><Observation><id value="b16ca6b0-ad45-408e-87a3-a210e14874c0" /><meta><profile value="http://hl7.org/fhir/us/vrdr/StructureDefinition/VRDR-Decedent-Education-Level" /></meta><status value="final" /><code><coding><system value="http://loinc.org" /><code value="80913-7" /><display value="Highest level of education" /></coding></code><subject><reference value="urn:uuid:db2859df-ae5f-442d-a45d-0e965e026fdb" /></subject><valueCodeableConcept><coding><system value="http://terminology.hl7.org/CodeSystem/v3-EducationLevel" /><code value="GD" /><display value="Graduate or professional Degree complete" /></coding></valueCodeableConcept></Observation></resource></entry><entry><fullUrl value="urn:uuid:5b5bf89a-2e89-4773-ab84-cd63882dcef0" /><resource><Observation><id value="5b5bf89a-2e89-4773-ab84-cd63882dcef0" /><meta><profile value="http://hl7.org/fhir/us/vrdr/StructureDefinition/VRDR-Decedent-Employment-History" /></meta><status value="final" /><code><coding><system value="http://loinc.org" /><code value="74165-2" /><display value="History of employment status" /></coding></code><subject><reference value="urn:uuid:db2859df-ae5f-442d-a45d-0e965e026fdb" /></subject><component><code><coding><system value="http://loinc.org" /><code value="21847-9" /><display value="Usual occupation" /></coding></code><valueString value="carpenter" /></component><component><code><coding><system value="http://loinc.org" /><code value="21844-6" /><display value="Usual industry" /></coding></code><valueString value="construction" /></component></Observation></resource></entry><entry><fullUrl value="urn:uuid:7b0f795f-9af1-438b-85c2-7df3b24e8d5e" /><resource><Observation><id value="7b0f795f-9af1-438b-85c2-7df3b24e8d5e" /><meta><profile value="http://hl7.org/fhir/us/vrdr/StructureDefinition/VRDR-Death-Date" /></meta><status value="final" /><code><coding><system value="http://loinc.org" /><code value="81956-5" /><display value="Date and time of death" /></coding></code><subject><reference value="urn:uuid:db2859df-ae5f-442d-a45d-0e965e026fdb" /></subject><effectiveDateTime value="2019-12-20T11:25:00" /><performer><reference value="urn:uuid:c88adbcf-b4a3-414d-8946-88b235bafb45" /></performer><component><code><coding><system value="http://loinc.org" /><code value="80616-6" /><display value="Date and time pronounced dead" /></coding></code><valueDateTime value="2019-12-20T11:35:00" /></component></Observation></resource></entry><entry><fullUrl value="urn:uuid:588b6e7f-e751-4534-ab15-7e9cc5c5a153" /><resource><Location><id value="588b6e7f-e751-4534-ab15-7e9cc5c5a153" /><meta><profile value="http://hl7.org/fhir/us/vrdr/StructureDefinition/VRDR-Death-Location" /></meta><name value="County Hospital" /><description value="Dead On Arrival" /></Location></resource></entry><entry><fullUrl value="urn:uuid:7c5d1397-fc09-4aa4-95b0-dea50b0d2b0f" /><resource><Condition><id value="7c5d1397-fc09-4aa4-95b0-dea50b0d2b0f" /><meta><profile value="http://hl7.org/fhir/us/vrdr/StructureDefinition/VRDR-Cause-Of-Death-Condition" /></meta><code><text value="blunt head trauma" /></code><subject><reference value="urn:uuid:db2859df-ae5f-442d-a45d-0e965e026fdb" /></subject><onsetString value="unknown" /><asserter><reference value="urn:uuid:c88adbcf-b4a3-414d-8946-88b235bafb45" /></asserter></Condition></resource></entry><entry><fullUrl value="urn:uuid:07f739d1-f80e-47df-adb3-5032bab63610" /><resource><Condition><id value="07f739d1-f80e-47df-adb3-5032bab63610" /><meta><profile value="http://hl7.org/fhir/us/vrdr/StructureDefinition/VRDR-Cause-Of-Death-Condition" /></meta><code><text value="Automobile accident" /></code><subject><reference value="urn:uuid:db2859df-ae5f-442d-a45d-0e965e026fdb" /></subject><onsetString value="unknown" /><asserter><reference value="urn:uuid:c88adbcf-b4a3-414d-8946-88b235bafb45" /></asserter></Condition></resource></entry><entry><fullUrl value="urn:uuid:cc1354c6-c21a-43cb-9ff6-72452093317f" /><resource><Condition><id value="cc1354c6-c21a-43cb-9ff6-72452093317f" /><meta><profile value="http://hl7.org/fhir/us/vrdr/StructureDefinition/VRDR-Cause-Of-Death-Condition" /></meta><code><text value="Epilepsy" /></code><subject><reference value="urn:uuid:db2859df-ae5f-442d-a45d-0e965e026fdb" /></subject><onsetString value="unknown" /><asserter><reference value="urn:uuid:c88adbcf-b4a3-414d-8946-88b235bafb45" /></asserter></Condition></resource></entry><entry><fullUrl value="urn:uuid:f9bccceb-a3a3-4eb3-a9f8-a0c3929670ad" /><resource><Observation><id value="f9bccceb-a3a3-4eb3-a9f8-a0c3929670ad" /><meta><profile value="http://hl7.org/fhir/us/vrdr/StructureDefinition/VRDR-Examiner-Contacted" /></meta><status value="final" /><code><coding><system value="http://loinc.org" /><code value="74497-9" /><display value="Medical examiner or coroner was contacted" /></coding></code><subject><reference value="urn:uuid:db2859df-ae5f-442d-a45d-0e965e026fdb" /></subject><valueBoolean value="true" /></Observation></resource></entry><entry><fullUrl value="urn:uuid:77ca1c1d-7633-4b3c-9dcd-fcaf8926ea40" /><resource><Observation><id value="77ca1c1d-7633-4b3c-9dcd-fcaf8926ea40" /><meta><profile value="http://hl7.org/fhir/us/vrdr/StructureDefinition/VRDR-Manner-of-Death" /></meta><status value="final" /><code><coding><system value="http://loinc.org" /><code value="69449-7" /><display value="Manner of death" /></coding></code><subject><reference value="urn:uuid:db2859df-ae5f-442d-a45d-0e965e026fdb" /></subject><performer><reference value="urn:uuid:c88adbcf-b4a3-414d-8946-88b235bafb45" /></performer><valueCodeableConcept><coding><system value="http://snomed.info/sct" /><code value="7878000" /><display value="Accidental death" /></coding></valueCodeableConcept></Observation></resource></entry><entry><fullUrl value="urn:uuid:dcc53374-a2cf-4c7f-89f4-890c4a7f62fa" /><resource><Observation><id value="dcc53374-a2cf-4c7f-89f4-890c4a7f62fa" /><meta><profile value="http://hl7.org/fhir/us/vrdr/StructureDefinition/VRDR-Injury-Incident" /></meta><status value="final" /><code><coding><system value="http://loinc.org" /><code value="11374-6" /><display value="Injury incident description" /></coding></code><subject><reference value="urn:uuid:db2859df-ae5f-442d-a45d-0e965e026fdb" /></subject><effectiveDateTime value="2019-12-20T11:15:00" /><valueString value="unrestrained ejected driver in rollover motor vehicle accident" /><component><code><coding><system value="http://loinc.org" /><code value="69444-8" /><display value="Did death result from injury at work" /></coding></code><valueCodeableConcept><coding><system value="http://terminology.hl7.org/CodeSystem/v2-0136" /><code value="Y" /><display value="Yes" /></coding></valueCodeableConcept></component><component><code><coding><system value="http://loinc.org" /><code value="69450-5" /><display value="Place of injury Facility" /></coding></code><valueString value="street" /></component></Observation></resource></entry><entry><fullUrl value="urn:uuid:61e1abc0-cb66-47a7-be30-deae422aa673" /><resource><Observation><id value="61e1abc0-cb66-47a7-be30-deae422aa673" /><meta><profile value="http://hl7.org/fhir/us/vrdr/StructureDefinition/VRDR-Decedent-Transportation-Role" /></meta><status value="final" /><code><coding><system value="http://loinc.org" /><code value="69451-3" /><display value="Transportation role of decedent" /></coding></code><subject><reference value="urn:uuid:db2859df-ae5f-442d-a45d-0e965e026fdb" /></subject><valueCodeableConcept><coding><system value="http://snomed.info/sct" /><code value="236320001" /><display value="Vehicle driver" /></coding></valueCodeableConcept></Observation></resource></entry><entry><fullUrl value="urn:uuid:b6b201d3-e78d-46a0-86f0-c7f5dea01c7e" /><resource><Observation><id value="b6b201d3-e78d-46a0-86f0-c7f5dea01c7e" /><meta><profile value="http://hl7.org/fhir/us/vrdr/StructureDefinition/VRDR-Autopsy-Performed-Indicator" /></meta><status value="final" /><code><coding><system value="http://loinc.org" /><code value="85699-7" /><display value="Autopsy was performed" /></coding></code><subject><reference value="urn:uuid:db2859df-ae5f-442d-a45d-0e965e026fdb" /></subject><valueCodeableConcept><coding><system value="http://terminology.hl7.org/CodeSystem/v2-0136" /><code value="N" /><display value="No" /></coding></valueCodeableConcept></Observation></resource></entry><entry><fullUrl value="urn:uuid:20425842-abf5-45cb-8d80-c743ccb775d6" /><resource><Observation><id value="20425842-abf5-45cb-8d80-c743ccb775d6" /><meta><profile value="http://hl7.org/fhir/us/vrdr/StructureDefinition/VRDR-Decedent-Disposition-Method" /></meta><extension url="http://hl7.org/fhir/us/vrdr/StructureDefinition/VRDR-Disposition-Location"><valueReference><reference value="urn:uuid:0fb2da6b-0a40-4227-b5c2-034e74cc87ac" /></valueReference></extension><status value="final" /><code><coding><system value="http://loinc.org" /><code value="80905-3" /><display value="Body disposition method" /></coding></code><subject><reference value="urn:uuid:db2859df-ae5f-442d-a45d-0e965e026fdb" /></subject><performer><reference value="urn:uuid:b5843edb-574d-4ece-9466-40c4c6e1c64e" /></performer><valueCodeableConcept><coding><system value="http://snomed.info/sct" /><code value="449941000124103" /><display value="Patient status determination, deceased and removed from state" /></coding></valueCodeableConcept></Observation></resource></entry><entry><fullUrl value="urn:uuid:3c0916c4-51a3-47dc-b352-114c3db2aef6" /><resource><Observation><id value="3c0916c4-51a3-47dc-b352-114c3db2aef6" /><meta><profile value="http://hl7.org/fhir/us/vrdr/StructureDefinition/VRDR-Decedent-Pregnancy" /></meta><status value="final" /><code><coding><system value="http://loinc.org" /><code value="69442-2" /><display value="Timing of recent pregnancy in relation to death" /></coding></code><subject><reference value="urn:uuid:db2859df-ae5f-442d-a45d-0e965e026fdb" /></subject><valueCodeableConcept><coding><system value="http://hl7.org/fhir/v3/NullFlavor" /><code value="NA" /><display value="not applicable" /></coding></valueCodeableConcept></Observation></resource></entry><entry><fullUrl value="urn:uuid:5ef16955-8594-46f9-bf35-1f88576afcd4" /><resource><Observation><id value="5ef16955-8594-46f9-bf35-1f88576afcd4" /><meta><profile value="http://hl7.org/fhir/us/vrdr/StructureDefinition/VRDR-Tobacco-Use-Contributed-To-Death" /></meta><status value="final" /><code><coding><system value="http://loinc.org" /><code value="69443-0" /><display value="Did tobacco use contribute to death" /></coding></code><subject><reference value="urn:uuid:db2859df-ae5f-442d-a45d-0e965e026fdb" /></subject><valueCodeableConcept><coding><system value="http://snomed.info/sct" /><code value="373067005" /><display value="No" /></coding></valueCodeableConcept></Observation></resource></entry></Bundle>