<Bundle xmlns="http://hl7.org/fhir"><id value="c7d3c938-8d58-44e0-84ec-2c38a8952cc1" /><meta><profile value="http://hl7.org/fhir/us/vrdr/StructureDefinition/VRDR-Death-Certificate-Document" /></meta><type value="document" /><entry><fullUrl value="urn:uuid:c7dcca63-167a-45e4-9021-5ba33b956cb4" /><resource><Composition><id value="c7dcca63-167a-45e4-9021-5ba33b956cb4" /><meta><profile value="http://hl7.org/fhir/us/vrdr/StructureDefinition/VRDR-Death-Certificate" /></meta><identifier><value value="444444" /></identifier><status value="final" /><type><coding><system value="http://loinc.org" /><code value="64297-5" /><display value="Death certificate" /></coding></type><subject><reference value="urn:uuid:a6f47a2d-c65c-4dfa-8c8d-872807375850" /></subject><date value="2020-01-15" /><attester><mode value="legal" /><time value="2020-01-10" /><party><reference value="urn:uuid:ce317a08-f95e-435e-88b4-05445c01a147" /></party></attester><event><code><coding><system value="http://snomed.info/sct" /><code value="308646001" /><display value="Death certification (procedure)" /></coding></code><detail><reference value="urn:uuid:73b53085-4ef2-4ddf-bb95-5f477c47c295" /></detail></event><section><entry><reference value="urn:uuid:a6f47a2d-c65c-4dfa-8c8d-872807375850" /></entry><entry><reference value="urn:uuid:ce317a08-f95e-435e-88b4-05445c01a147" /></entry><entry><reference value="urn:uuid:2e6b4ff8-9fa4-447b-a019-c0d768c7b94b" /></entry><entry><reference value="urn:uuid:73b53085-4ef2-4ddf-bb95-5f477c47c295" /></entry><entry><reference value="urn:uuid:397c8a4a-9792-42c1-a478-2caac0ea8609" /></entry><entry><reference value="urn:uuid:968468ea-876a-4bc2-875f-243a6c713b39" /></entry><entry><reference value="urn:uuid:cf08356f-1e4c-4654-be42-a2c1a7920339" /></entry><entry><reference value="urn:uuid:ece119e8-0046-4b9b-8233-dcb19217a26e" /></entry><entry><reference value="urn:uuid:3296d361-3918-4d3a-98ca-833a83593f75" /></entry><entry><reference value="urn:uuid:fc58c507-10f3-4cf1-a3fc-5d2c332d384f" /></entry><entry><reference value="urn:uuid:d5fd771b-f79e-4c80-aa3d-3fc18ece7938" /></entry><entry><reference value="urn:uuid:506d97b3-84e0-432c-89f1-7e36bcd5b7b3" /></entry><entry><reference value="urn:uuid:4e26dbb2-c127-4421-aa4a-36a6bfb8ea11" /></entry><entry><reference value="urn:uuid:5f8a9163-ac5f-4e8e-8c9d-a1e288d690ed" /></entry><entry><reference value="urn:uuid:80c95f51-3a67-42a2-9d58-fca22c1fd832" /></entry><entry><reference value="urn:uuid:663b1787-474f-4ac3-9796-a5ed14f3cf0e" /></entry><entry><reference value="urn:uuid:982b078c-8dd7-4a80-9d04-77d660f1ac0d" /></entry><entry><reference value="urn:uuid:2868663e-b755-45c6-a962-3a36bb02f90e" /></entry><entry><reference value="urn:uuid:1fac1b27-6fc4-4c89-b7cd-ee1ebdde4d82" /></entry><entry><reference value="urn:uuid:07bffa07-e910-4830-a92c-832333cb640a" /></entry><entry><reference value="urn:uuid:aaa17fe5-9ec6-41d7-8751-367498e7c7b7" /></entry><entry><reference value="urn:uuid:40f6c5e2-6819-490d-b062-ddf5f86791ab" /></entry><entry><reference value="urn:uuid:7a98dcac-c4ce-4a6f-bbe5-047d90de0a37" /></entry><entry><reference value="urn:uuid:8edf3fbe-da39-4d5f-bd62-d3cbabc673f4" /></entry></section></Composition></resource></entry><entry><fullUrl value="urn:uuid:a6f47a2d-c65c-4dfa-8c8d-872807375850" /><resource><Patient><id value="a6f47a2d-c65c-4dfa-8c8d-872807375850" /><meta><profile value="http://hl7.org/fhir/us/vrdr/StructureDefinition/VRDR-Decedent" /></meta><extension url="http://hl7.org/fhir/us/core/StructureDefinition/us-core-race"><extension url="ombCategory"><valueCoding><system value="urn:oid:2.16.840.1.113883.6.238" /><code value="2106-3" /><display value="White" /></valueCoding></extension><extension url="ombCategory"><valueCoding><system value="urn:oid:2.16.840.1.113883.6.238" /><code value="2054-5" /><display value="Black" /></valueCoding></extension><extension url="text"><valueString value="White, Black" /></extension></extension><extension url="http://hl7.org/fhir/us/core/StructureDefinition/us-core-ethnicity"><extension url="detailed"><valueCoding><system value="urn:oid:2.16.840.1.113883.6.238" /><code value="2182-4" /><display value="Cuban" /></valueCoding></extension><extension url="text"><valueString value="Cuban" /></extension></extension><extension url="http://hl7.org/fhir/us/core/StructureDefinition/us-core-birthsex"><valueCode value="M" /></extension><identifier><type><coding><code value="SB" /><display value="Social Beneficiary Identifier" /></coding></type><system value="http://hl7.org/fhir/sid/us-ssn" /><value value="456123789" /></identifier><name><use value="official" /><family value="Perez" /><given value="Javier" /><given value="Luis" /></name><address><extension url="http://hl7.org/fhir/us/vrdr/StructureDefinition/Within-City-Limits-Indicator"><valueBoolean value="false" /></extension><city value="Annapolis" /><district value="Anne Arundel" /><state value="Maryland" /><country value="United States" /></address><maritalStatus><coding><system value="http://terminology.hl7.org/CodeSystem/v3-MaritalStatus" /><code value="M" /><display value="Married" /></coding></maritalStatus></Patient></resource></entry><entry><fullUrl value="urn:uuid:ce317a08-f95e-435e-88b4-05445c01a147" /><resource><Practitioner><id value="ce317a08-f95e-435e-88b4-05445c01a147" /><meta><profile value="http://hl7.org/fhir/us/vrdr/StructureDefinition/VRDR-Certifier" /></meta><name><use value="official" /><family value="Lost" /><given value="Hope" /></name><address><line value="RR1" /><city value="Dover" /><state value="Delaware" /><country value="United States" /></address></Practitioner></resource></entry><entry><fullUrl value="urn:uuid:2e6b4ff8-9fa4-447b-a019-c0d768c7b94b" /><resource><Practitioner><id value="2e6b4ff8-9fa4-447b-a019-c0d768c7b94b" /><meta><profile value="http://hl7.org/fhir/us/vrdr/StructureDefinition/VRDR-Mortician" /></meta></Practitioner></resource></entry><entry><fullUrl value="urn:uuid:73b53085-4ef2-4ddf-bb95-5f477c47c295" /><resource><Procedure><id value="73b53085-4ef2-4ddf-bb95-5f477c47c295" /><meta><profile value="http://hl7.org/fhir/us/vrdr/StructureDefinition/VRDR-Death-Certification" /></meta><status value="completed" /><category><coding><system value="http://snomed.info/sct" /><code value="103693007" /><display value="Diagnostic procedure" /></coding></category><code><coding><system value="http://snomed.info/sct" /><code value="308646001" /><display value="Death certification" /></coding></code><performedDateTime value="2020-01-10" /><performer><function><coding><system value="http://snomed.info/sct" /><code value="434641000124105" /><display value="Death certification and verification by physician" /></coding></function><actor><reference value="urn:uuid:ce317a08-f95e-435e-88b4-05445c01a147" /></actor></performer></Procedure></resource></entry><entry><fullUrl value="urn:uuid:397c8a4a-9792-42c1-a478-2caac0ea8609" /><resource><Organization><id value="397c8a4a-9792-42c1-a478-2caac0ea8609" /><meta><profile value="http://hl7.org/fhir/us/vrdr/StructureDefinition/VRDR-Interested-Party" /></meta><active value="true" /></Organization></resource></entry><entry><fullUrl value="urn:uuid:968468ea-876a-4bc2-875f-243a6c713b39" /><resource><Organization><id value="968468ea-876a-4bc2-875f-243a6c713b39" /><meta><profile value="http://hl7.org/fhir/us/vrdr/StructureDefinition/VRDR-Funeral-Home" /></meta><type><coding><code value="bus" /><display value="Non-Healthcare Business or Corporation" /></coding></type></Organization></resource></entry><entry><fullUrl value="urn:uuid:cf08356f-1e4c-4654-be42-a2c1a7920339" /><resource><PractitionerRole><id value="cf08356f-1e4c-4654-be42-a2c1a7920339" /><meta><profile value="http://hl7.org/fhir/us/vrdr/StructureDefinition/VRDR-Funeral-Service-Licensee" /></meta><practitioner><reference value="urn:uuid:2e6b4ff8-9fa4-447b-a019-c0d768c7b94b" /></practitioner><organization><reference value="urn:uuid:968468ea-876a-4bc2-875f-243a6c713b39" /></organization></PractitionerRole></resource></entry><entry><fullUrl value="urn:uuid:ece119e8-0046-4b9b-8233-dcb19217a26e" /><resource><List><id value="ece119e8-0046-4b9b-8233-dcb19217a26e" /><meta><profile value="http://hl7.org/fhir/us/vrdr/StructureDefinition/VRDR-Cause-of-Death-Pathway" /></meta><status value="current" /><mode value="snapshot" /><source><reference value="urn:uuid:ce317a08-f95e-435e-88b4-05445c01a147" /></source><orderedBy><coding><code value="priority" /></coding></orderedBy><entry><item><reference value="urn:uuid:663b1787-474f-4ac3-9796-a5ed14f3cf0e" /></item></entry><entry><item><reference value="urn:uuid:982b078c-8dd7-4a80-9d04-77d660f1ac0d" /></item></entry></List></resource></entry><entry><fullUrl value="3296d361-3918-4d3a-98ca-833a83593f75" /><resource><Location><id value="3296d361-3918-4d3a-98ca-833a83593f75" /><meta><profile value="http://hl7.org/fhir/us/vrdr/StructureDefinition/VRDR-Disposition-Location" /></meta></Location></resource></entry><entry><fullUrl value="urn:uuid:fc58c507-10f3-4cf1-a3fc-5d2c332d384f" /><resource><Observation><id value="fc58c507-10f3-4cf1-a3fc-5d2c332d384f" /><meta><profile value="http://hl7.org/fhir/us/vrdr/StructureDefinition/VRDR-Decedent-Age" /></meta><status value="final" /><code><coding><system value="http://loinc.org" /><code value="30525-0" /><display value="Age" /></coding></code><subject><reference value="urn:uuid:a6f47a2d-c65c-4dfa-8c8d-872807375850" /></subject><valueQuantity><value value="55" /><unit value="a" /></valueQuantity></Observation></resource></entry><entry><fullUrl value="urn:uuid:d5fd771b-f79e-4c80-aa3d-3fc18ece7938" /><resource><RelatedPerson><id value="d5fd771b-f79e-4c80-aa3d-3fc18ece7938" /><meta><profile value="http://hl7.org/fhir/us/vrdr/StructureDefinition/VRDR-Decedent-Father" /></meta><patient><reference value="urn:uuid:a6f47a2d-c65c-4dfa-8c8d-872807375850" /></patient><relationship><coding><code value="FTH" /></coding></relationship><name><family value="Perez" /></name></RelatedPerson></resource></entry><entry><fullUrl value="urn:uuid:506d97b3-84e0-432c-89f1-7e36bcd5b7b3" /><resource><Observation><id value="506d97b3-84e0-432c-89f1-7e36bcd5b7b3" /><meta><profile value="http://hl7.org/fhir/us/vrdr/StructureDefinition/VRDR-Decedent-Education-Level" /></meta><status value="final" /><code><coding><system value="http://loinc.org" /><code value="80913-7" /><display value="Highest level of education" /></coding></code><subject><reference value="urn:uuid:a6f47a2d-c65c-4dfa-8c8d-872807375850" /></subject><valueCodeableConcept><coding><system value="http://terminology.hl7.org/CodeSystem/v3-EducationLevel" /><code value="GD" /><display value="Graduate or professional Degree complete" /></coding></valueCodeableConcept></Observation></resource></entry><entry><fullUrl value="urn:uuid:4e26dbb2-c127-4421-aa4a-36a6bfb8ea11" /><resource><Observation><id value="4e26dbb2-c127-4421-aa4a-36a6bfb8ea11" /><meta><profile value="http://hl7.org/fhir/us/vrdr/StructureDefinition/VRDR-Decedent-Employment-History" /></meta><status value="final" /><code><coding><system value="http://loinc.org" /><code value="74165-2" /><display value="History of employment status" /></coding></code><subject><reference value="urn:uuid:a6f47a2d-c65c-4dfa-8c8d-872807375850" /></subject><component><code><coding><system value="http://loinc.org" /><code value="21847-9" /><display value="Usual occupation" /></coding></code><valueString value="carpenter" /></component><component><code><coding><system value="http://loinc.org" /><code value="21844-6" /><display value="Usual industry" /></coding></code><valueString value="construction" /></component></Observation></resource></entry><entry><fullUrl value="urn:uuid:5f8a9163-ac5f-4e8e-8c9d-a1e288d690ed" /><resource><Observation><id value="5f8a9163-ac5f-4e8e-8c9d-a1e288d690ed" /><meta><profile value="http://hl7.org/fhir/us/vrdr/StructureDefinition/VRDR-Death-Date" /></meta><status value="final" /><code><coding><system value="http://loinc.org" /><code value="81956-5" /><display value="Date and time of death" /></coding></code><subject><reference value="urn:uuid:a6f47a2d-c65c-4dfa-8c8d-872807375850" /></subject><effectiveDateTime value="2019-12-20T11:25:00" /><performer><reference value="urn:uuid:ce317a08-f95e-435e-88b4-05445c01a147" /></performer><component><code><coding><system value="http://loinc.org" /><code value="80616-6" /><display value="Date and time pronounced dead" /></coding></code><valueDateTime value="2019-12-20T11:35:00" /></component></Observation></resource></entry><entry><fullUrl value="urn:uuid:80c95f51-3a67-42a2-9d58-fca22c1fd832" /><resource><Location><id value="80c95f51-3a67-42a2-9d58-fca22c1fd832" /><meta><profile value="http://hl7.org/fhir/us/vrdr/StructureDefinition/VRDR-Death-Location" /></meta><name value="County Hospital" /><description value="Dead On Arrival" /></Location></resource></entry><entry><fullUrl value="urn:uuid:663b1787-474f-4ac3-9796-a5ed14f3cf0e" /><resource><Condition><id value="663b1787-474f-4ac3-9796-a5ed14f3cf0e" /><meta><profile value="http://hl7.org/fhir/us/vrdr/StructureDefinition/VRDR-Cause-Of-Death-Condition" /></meta><code><text value="blunt head trauma" /></code><subject><reference value="urn:uuid:a6f47a2d-c65c-4dfa-8c8d-872807375850" /></subject><onsetString value="unknown" /><asserter><reference value="urn:uuid:ce317a08-f95e-435e-88b4-05445c01a147" /></asserter></Condition></resource></entry><entry><fullUrl value="urn:uuid:982b078c-8dd7-4a80-9d04-77d660f1ac0d" /><resource><Condition><id value="982b078c-8dd7-4a80-9d04-77d660f1ac0d" /><meta><profile value="http://hl7.org/fhir/us/vrdr/StructureDefinition/VRDR-Cause-Of-Death-Condition" /></meta><code><text value="Automobile accident" /></code><subject><reference value="urn:uuid:a6f47a2d-c65c-4dfa-8c8d-872807375850" /></subject><onsetString value="unknown" /><asserter><reference value="urn:uuid:ce317a08-f95e-435e-88b4-05445c01a147" /></asserter></Condition></resource></entry><entry><fullUrl value="urn:uuid:2868663e-b755-45c6-a962-3a36bb02f90e" /><resource><Observation><id value="2868663e-b755-45c6-a962-3a36bb02f90e" /><meta><profile value="http://hl7.org/fhir/us/vrdr/StructureDefinition/VRDR-Examiner-Contacted" /></meta><status value="final" /><code><coding><system value="http://loinc.org" /><code value="74497-9" /><display value="Medical examiner or coroner was contacted" /></coding></code><subject><reference value="urn:uuid:a6f47a2d-c65c-4dfa-8c8d-872807375850" /></subject><valueBoolean value="true" /></Observation></resource></entry><entry><fullUrl value="urn:uuid:1fac1b27-6fc4-4c89-b7cd-ee1ebdde4d82" /><resource><Observation><id value="1fac1b27-6fc4-4c89-b7cd-ee1ebdde4d82" /><meta><profile value="http://hl7.org/fhir/us/vrdr/StructureDefinition/VRDR-Manner-of-Death" /></meta><status value="final" /><code><coding><system value="http://loinc.org" /><code value="69449-7" /><display value="Manner of death" /></coding></code><subject><reference value="urn:uuid:a6f47a2d-c65c-4dfa-8c8d-872807375850" /></subject><performer><reference value="urn:uuid:ce317a08-f95e-435e-88b4-05445c01a147" /></performer><valueCodeableConcept><coding><system value="http://snomed.info/sct" /><code value="7878000" /><display value="Accidental death" /></coding></valueCodeableConcept></Observation></resource></entry><entry><fullUrl value="urn:uuid:07bffa07-e910-4830-a92c-832333cb640a" /><resource><Observation><id value="07bffa07-e910-4830-a92c-832333cb640a" /><meta><profile value="http://hl7.org/fhir/us/vrdr/StructureDefinition/VRDR-Injury-Incident" /></meta><status value="final" /><code><coding><system value="http://loinc.org" /><code value="11374-6" /><display value="Injury incident description" /></coding></code><subject><reference value="urn:uuid:a6f47a2d-c65c-4dfa-8c8d-872807375850" /></subject><effectiveDateTime value="2019-12-20T11:15:00" /><valueString value="unrestrained ejected driver in rollover motor vehicle accident" /><component><code><coding><system value="http://loinc.org" /><code value="69444-8" /><display value="Did death result from injury at work" /></coding></code><valueCodeableConcept><coding><system value="http://terminology.hl7.org/CodeSystem/v2-0136" /><code value="Y" /><display value="Yes" /></coding></valueCodeableConcept></component><component><code><coding><system value="http://loinc.org" /><code value="69450-5" /><display value="Place of injury Facility" /></coding></code><valueString value="street" /></component></Observation></resource></entry><entry><fullUrl value="urn:uuid:aaa17fe5-9ec6-41d7-8751-367498e7c7b7" /><resource><Observation><id value="aaa17fe5-9ec6-41d7-8751-367498e7c7b7" /><meta><profile value="http://hl7.org/fhir/us/vrdr/StructureDefinition/VRDR-Decedent-Transportation-Role" /></meta><status value="final" /><code><coding><system value="http://loinc.org" /><code value="69451-3" /><display value="Transportation role of decedent" /></coding></code><subject><reference value="urn:uuid:a6f47a2d-c65c-4dfa-8c8d-872807375850" /></subject><valueCodeableConcept><coding><system value="http://snomed.info/sct" /><code value="236320001" /><display value="Vehicle driver" /></coding></valueCodeableConcept></Observation></resource></entry><entry><fullUrl value="urn:uuid:40f6c5e2-6819-490d-b062-ddf5f86791ab" /><resource><Observation><id value="40f6c5e2-6819-490d-b062-ddf5f86791ab" /><meta><profile value="http://hl7.org/fhir/us/vrdr/StructureDefinition/VRDR-Autopsy-Performed-Indicator" /></meta><status value="final" /><code><coding><system value="http://loinc.org" /><code value="85699-7" /><display value="Autopsy was performed" /></coding></code><subject><reference value="urn:uuid:a6f47a2d-c65c-4dfa-8c8d-872807375850" /></subject><valueCodeableConcept><coding><system value="http://terminology.hl7.org/CodeSystem/v2-0136" /><code value="N" /><display value="No" /></coding></valueCodeableConcept></Observation></resource></entry><entry><fullUrl value="urn:uuid:7a98dcac-c4ce-4a6f-bbe5-047d90de0a37" /><resource><Observation><id value="7a98dcac-c4ce-4a6f-bbe5-047d90de0a37" /><meta><profile value="http://hl7.org/fhir/us/vrdr/StructureDefinition/VRDR-Decedent-Disposition-Method" /></meta><extension url="http://hl7.org/fhir/us/vrdr/StructureDefinition/VRDR-Disposition-Location"><valueReference><reference value="urn:uuid:3296d361-3918-4d3a-98ca-833a83593f75" /></valueReference></extension><status value="final" /><code><coding><system value="http://loinc.org" /><code value="80905-3" /><display value="Body disposition method" /></coding></code><subject><reference value="urn:uuid:a6f47a2d-c65c-4dfa-8c8d-872807375850" /></subject><performer><reference value="urn:uuid:2e6b4ff8-9fa4-447b-a019-c0d768c7b94b" /></performer><valueCodeableConcept><coding><system value="http://snomed.info/sct" /><code value="449941000124103" /><display value="Patient status determination, deceased and removed from state" /></coding></valueCodeableConcept></Observation></resource></entry><entry><fullUrl value="urn:uuid:8edf3fbe-da39-4d5f-bd62-d3cbabc673f4" /><resource><Observation><id value="8edf3fbe-da39-4d5f-bd62-d3cbabc673f4" /><meta><profile value="http://hl7.org/fhir/us/vrdr/StructureDefinition/VRDR-Decedent-Pregnancy" /></meta><status value="final" /><code><coding><system value="http://loinc.org" /><code value="69442-2" /><display value="Timing of recent pregnancy in relation to death" /></coding></code><subject><reference value="urn:uuid:a6f47a2d-c65c-4dfa-8c8d-872807375850" /></subject><valueCodeableConcept><coding><system value="http://hl7.org/fhir/v3/NullFlavor" /><code value="NA" /><display value="not applicable" /></coding></valueCodeableConcept></Observation></resource></entry></Bundle>